<List xmlns="http://hl7.org/fhir" xmlns:xsi="http://www.w3.org/2001/XMLSchema-instance">
	<meta>
		<profile value="https://fhir.nhs.uk/STU3/StructureDefinition/eRS-FetchServices-List-1"/>
	</meta>
	<contained>
		<Practitioner>
			<id value="1"/>
			<meta>
				<profile value="https://fhir.nhs.uk/STU3/StructureDefinition/eRS-Practitioner-1"/>
			</meta>
			<identifier>
				<system value="https://fhir.nhs.uk/Id/sds-user-id"/>
				<value value="443556876110"/>
			</identifier>
		</Practitioner>
	</contained>
	<contained>
		<Practitioner>
			<id value="2"/>
			<meta>
				<profile value="https://fhir.nhs.uk/STU3/StructureDefinition/eRS-Practitioner-1"/>
			</meta>
			<identifier>
				<system value="https://fhir.nhs.uk/Id/sds-user-id"/>
				<value value="556532120987"/>
			</identifier>
		</Practitioner>
	</contained>
	<contained>
		<HealthcareService>
			<id value="4"/>
			<meta>
				<profile value="https://fhir.nhs.uk/STU3/StructureDefinition/eRS-HealthcareService-1"/>
			</meta>
			<identifier>
				<system value="http://fhir.nhs.net/Id/ers-service"/>
				<value value="ESS22"/>
			</identifier>
			<location>
				<reference value="#10"/>
			</location>
			<name value="The Exeter Triage Serice"/>
		</HealthcareService>
	</contained>
	<contained>
		<Location>
			<id value="10"/>
			<meta>
				<profile value="https://fhir.nhs.uk/STU3/StructureDefinition/eRS-Location-1"/>
			</meta> 
			<identifier>
				<system value="https://directory.spineservices.nhs.uk/STU3/Organization"/>
				<value value="EX01"/>
			</identifier>		
		</Location>
	</contained>
	<status value="current"/>
	<mode value="working"/>
	<entry>
		<extension url="https://fhir.nhs.uk/STU3/StructureDefinition/Extension-eRS-ServiceSearch-ListItem-1">
			<extension url="distance">
				<valueUnsignedInt value="11"/>
			</extension>
			<extension url="unaccredited">
				<valueBoolean value="false"/>
			</extension>
			<extension url="restricted">
				<valueBoolean value="true"/>
			</extension>
			<extension url="authorisedPathwayService">
				<valueReference>
					<reference value="#4"/>
					<display value="The Exeter Triage Serice"/>
				</valueReference>
			</extension>
			<extension url="indicativeAppointmentWaitTime">
				<valueUnsignedInt value="3"/>
			</extension>
			<extension url="displayProminently">
				<valueBoolean value="false"/>
			</extension>
		</extension>
		<item>
			<extension url="https://fhir.nhs.uk/STU3/StructureDefinition/Extension-eRS-ServiceSummaryView-1">
				<extension url="supportedAppointmentType">
					<valueCoding>
						<system value="https://fhir.nhs.uk/STU3/CodeSystem/eRS-AppointmentType-1"/>
						<code value="FIRST_OUTPATIENT"/>
						<display value="First Outpatient"/>
					</valueCoding>
				</extension>
				<extension url="serviceName">
					<valueString value="Ear, Nose &amp; Throat"/>
				</extension>
				<extension url="supportedRequestFlowType">
					<valueCoding>
						<system value="https://fhir.nhs.uk/STU3/CodeSystem/eRS-RequestFlowType-1"/>
						<code value="APPOINTMENT_REQUEST"/>
						<display value="Appointment Request"/>
					</valueCoding>
				</extension>
				<extension url="capacityAlert">
					<valueCoding>
						<system value="https://fhir.nhs.uk/STU3/CodeSystem/eRS-CapacityAlert-1"/>
						<code value="GOOD"/>
						<display value="Available Capacity"/>
					</valueCoding>
				</extension>
				<extension url="indicativeTreatmentWaitTime">
					<valueQuantity>
						<value value="3"/>
						<unit value="week"/>
						<system value="http://unitsofmeasure.org"/>
						<code value="[wk]"/>
					</valueQuantity>
				</extension>
				<extension url="bookableType">
					<valueCoding>
						<system value="https://fhir.nhs.uk/STU3/CodeSystem/eRS-BookableType-1"/>
						<code value="DIRECTLY_BOOKABLE"/>
						<display value="Directly Bookable"/>
					</valueCoding>
				</extension>
				<extension url="linkToNHSWebsite">
					<valueString value="https://www.nhs.uk/service-search/chooseandbook?serviceId=5546192"/>
				</extension>
				<extension url="location">
					<valueReference>
						<reference value="#10"/>
						<display value="Royal Devon and Exeter hospital"/>
					</valueReference>
				</extension>
				<extension url="namedClinician">
					<valueReference>
						<reference value="#1"/>
						<display value="Helen Smith"/>
					</valueReference>
				</extension>
				<extension url="referrerAlert">
					<valueString value="Referrer alert"/>
				</extension>
				<extension url="exclusions">
					<valueString value="Exclusions"/>
				</extension>
				<extension url="suggestedInvestigations">
					<valueString value="Suggested Investigations"/>
				</extension>
				<extension url="conditionsTreated">
					<valueString value="All ear nose or throad conditions"/>
				</extension>
				<extension url="ageTreated">
					<valueRange>
						<low>
							<value value="5"/>
							<unit value="years"/>
						</low>
						<high>
							<value value="66"/>
							<unit value="years"/>
						</high>
					</valueRange>
				</extension>
				<extension url="genderTreated">
					<valueCoding>
						<system value="https://fhir.nhs.uk/STU3/CodeSystem/eRS-GenderTreated-1"/>
						<code value="MALE_AND_FEMALE"/>
						<display value="Male and female"/>
					</valueCoding>
				</extension>
				<extension url="additionalRequirementSupported">
					<valueCoding>
						<system value="https://fhir.nhs.uk/STU3/CodeSystem/eRS-AdditionalRequirementType-1"/>
						<code value="TRANSPORT"/>
						<display value="Transport"/>
					</valueCoding>
				</extension>
				<extension url="patientTelephoneLine">
					<valueContactPoint>
						<system value="phone"/>
						<value value="0223 1234321"/>
						<use value="work"/>
					</valueContactPoint>
				</extension>
				<extension url="hoursOfOperation">
					<valueString value="8am-9pm Mon-Sat"/>
				</extension>
				<extension url="referralLetterRequired">
					<valueBoolean value="false"/>
				</extension>
			</extension>
			<reference value="#4"/>
			<display value="Cardiology - General - Royal Devon and Exeter Hospital"/>
		</item>
	</entry>
	<entry>
		<extension url="https://fhir.nhs.uk/STU3/StructureDefinition/Extension-eRS-ServiceSearch-ListItem-1">
			<extension url="distance">
				<valueUnsignedInt value="25"/>
			</extension>
			<extension url="unaccredited">
				<valueBoolean value="true"/>
			</extension>
			<extension url="restricted">
				<valueBoolean value="false"/>
			</extension>
			<extension url="indicativeAppointmentWaitTime">
				<valueCoding>
					<system value="https://fhir.nhs.uk/STU3/CodeSystem/eRS-IWT-1"/>
					<code value="NOT_APPLICABLE"/>
					<display value="Not Applicable"/>
				</valueCoding>
			</extension>
			<extension url="displayProminently">
				<valueBoolean value="false"/>
			</extension>
		</extension>
		<item>
			<extension url="https://fhir.nhs.uk/STU3/StructureDefinition/Extension-eRS-ServiceSummaryView-1">
				<extension url="supportedAppointmentType">
					<valueCoding>
						<system value="https://fhir.nhs.uk/STU3/CodeSystem/eRS-AppointmentType-1"/>
						<code value="FIRST_OUTPATIENT"/>
						<display value="First Outpatient"/>
					</valueCoding>
				</extension>
				<extension url="serviceName">
					<valueString value="Service"/>
				</extension>
				<extension url="supportedRequestFlowType">
					<valueCoding>
						<system value="https://fhir.nhs.uk/STU3/CodeSystem/eRS-RequestFlowType-1"/>
						<code value="APPOINTMENT_REQUEST"/>
						<display value="Appointment Request"/>
					</valueCoding>
				</extension>
				<extension url="capacityAlert">
					<valueCoding>
						<system value="https://fhir.nhs.uk/STU3/CodeSystem/eRS-CapacityAlert-1"/>
						<code value="LOW"/>
						<display value="Limited Capacity"/>
					</valueCoding>
				</extension>
				<extension url="indicativeTreatmentWaitTime">
					<valueCode value="NOT_REPORTING"/>
				</extension>
				<extension url="bookableType">
					<valueCoding>
						<system value="https://fhir.nhs.uk/STU3/CodeSystem/eRS-BookableType-1"/>
						<code value="INDIRECTLY_BOOKABLE"/>
						<display value="Indirectly Bookable"/>
					</valueCoding>
				</extension>
				<extension url="linkToNHSWebsite">
					<valueString value="https://www.nhs.uk/service-search/chooseandbook?serviceId=5246008"/>
				</extension>
				<extension url="location">
					<valueReference>
						<reference value="#10"/>
						<display value="Heavitree hospital, Exeter"/>
					</valueReference>
				</extension>
				<extension url="namedClinician">
					<valueReference>
						<reference value="#1"/>
						<display value="Richard Palmer"/>
					</valueReference>
				</extension>
				<extension url="namedClinician">
					<valueReference>
						<reference value="#2"/>
						<display value="Anna Foster"/>
					</valueReference>
				</extension>
				<extension url="genderTreated">
					<valueCoding>
						<system value="https://fhir.nhs.uk/STU3/CodeSystem/eRS-GenderTreated-1"/>
						<code value="MALE_AND_FEMALE"/>
						<display value="Male and female"/>
					</valueCoding>
				</extension>
				<extension url="referralLetterRequired">
					<valueBoolean value="true"/>
				</extension>
			</extension>
			<reference value="HealthcareService/00000987654321"/>
			<display value="Cardiology - Arrhythmia - Exeter Heavitree Hospital"/>
		</item>
	</entry>
</List>
